Folder: External_Acidity_Paper/results/TGA/outputs_isothermal (part 2)

File: Z11.csv
slope,intercept,r_value,p_value,std_err,C_rel,temperature,file
-7.10969e-05,-0.229738,-0.990179,0.0,1.20379e-07,0.138473,235.0,SR_TGA_0120_Z11_P1-001-3_BM_iso235_ratio_1_repro_01.txt
-0.000648466,-0.19462,-0.99833,0.0,9.70139e-07,0.37306,235.0,SR_TGA_0120_Z11_P1-001-3_BM_iso235_ratio_1_repro_02.txt
-0.000578291,-0.218052,-0.99848,0.0,7.84749e-07,0.390016,235.0,SR_TGA_0120_Z11_P1-001-3_BM_iso235_ratio_2_repro_01.txt
-0.000149693,-0.276218,-0.996335,0.0,1.63219e-07,0.189322,235.0,SR_TGA_0120_Z11_P1-001-3_BM_iso235_ratio_2_repro_02.txt
-0.000102898,-0.263989,-0.993216,0.0,1.43723e-07,0.183264,235.0,SR_TGA_0120_Z11_P1-001-3_BM_iso235_ratio_3_repro_01.txt
-5.49741e-05,-0.190141,-0.991918,0.0,8.54849e-08,0.0965178,235.0,SR_TGA_0120_Z11_P1-001-3_BM_iso235_ratio_3_repro_02.txt
-6.98666e-05,-0.218132,-0.991556,0.0,1.09859e-07,0.116995,240.0,SR_TGA_0120_Z11_P1-001-3_BM_iso240_ratio_1_repro_01.txt
-0.000736796,-0.286561,-0.994833,0.0,2.14053e-06,0.373499,240.0,SR_TGA_0120_Z11_P1-001-3_BM_iso240_ratio_1_repro_02.txt
-0.000649933,-0.199527,-0.998686,0.0,8.66613e-07,0.388639,240.0,SR_TGA_0120_Z11_P1-001-3_BM_iso240_ratio_2_repro_01.txt
-0.000224323,-0.274073,-0.996683,0.0,2.84745e-07,0.195462,240.0,SR_TGA_0120_Z11_P1-001-3_BM_iso240_ratio_2_repro_02.txt
-0.000270957,-0.259045,-0.997051,0.0,3.55031e-07,0.211245,240.0,SR_TGA_0120_Z11_P1-001-3_BM_iso240_ratio_3_repro_01.txt
-7.52847e-05,-0.2235,-0.99277,0.0,1.09054e-07,0.115509,240.0,SR_TGA_0120_Z11_P1-001-3_BM_iso240_ratio_3_repro_02.txt
-5.9695e-05,-0.202955,-0.991942,0.0,9.20257e-08,0.0999913,245.0,SR_TGA_0120_Z11_P1-001-3_BM_iso245_ratio1_repro_01.txt
-0.000736809,-0.276405,-0.99636,0.0,1.7879e-06,0.390732,245.0,SR_TGA_0120_Z11_P1-001-3_BM_iso245_ratio1_repro_02.txt
-0.00208057,-0.235305,-0.99659,0.0,8.12977e-06,0.437299,245.0,SR_TGA_0120_Z11_P1-001-3_BM_iso245_ratio2_repro_01.txt
-0.000377237,-0.264594,-0.997061,0.0,5.85056e-07,0.224099,245.0,SR_TGA_0120_Z11_P1-001-3_BM_iso245_ratio2_repro_02.txt
-0.000210066,-0.271966,-0.996576,0.0,2.62383e-07,0.193918,245.0,SR_TGA_0120_Z11_P1-001-3_BM_iso245_ratio3_repro_01.txt
-7.40125e-05,-0.212936,-0.993585,0.0,1.01199e-07,0.0971457,245.0,SR_TGA_0120_Z11_P1-001-3_BM_iso245_ratio3_repro_02.txt
-0.00113343,-0.247154,-0.997248,0.0,2.93904e-06,0.385815,250.0,SR_TGA_0120_Z11_P1-001-3_BM_iso250new_ratio1_repro_01.txt
-0.00113751,-0.331652,-0.991758,0.0,5.31994e-06,0.376863,250.0,SR_TGA_0120_Z11_P1-001-3_BM_iso250new_ratio1_repro_02.txt
-0.000209664,-0.263998,-0.997138,0.0,2.37788e-07,0.15954,250.0,SR_TGA_0120_Z11_P1-001-3_BM_iso250new_ratio2_repro_01.txt
-0.000379845,-0.274947,-0.997092,0.0,5.88843e-07,0.19853,250.0,SR_TGA_0120_Z11_P1-001-3_BM_iso250new_ratio2_repro_02.txt
-0.000138806,-0.257285,-0.997383,0.0,1.2194e-07,0.130744,250.0,SR_TGA_0120_Z11_P1-001-3_BM_iso250new_ratio3_repro_01.txt
-0.000154648,-0.275536,-0.99671,0.0,1.61987e-07,0.146332,250.0,SR_TGA_0120_Z11_P1-001-3_BM_iso250new_ratio3_repro_02.txt
-0.000112821,-0.225022,-0.997395,0.0,9.74738e-08,0.105324,255.0,SR_TGA_0120_Z11_P1-001-3_BM_iso255_ratio1_repro_01.txt
-0.000842474,-0.2793,-0.996545,0.0,2.13544e-06,0.363975,255.0,SR_TGA_0120_Z11_P1-001-3_BM_iso255_ratio1_repro_02.txt
-0.00330136,-0.283057,-0.992789,6.18303e-249,2.43502e-05,0.4415,255.0,SR_TGA_0120_Z11_P1-001-3_BM_iso255_ratio2_repro_01.txt
-0.000584889,-0.286894,-0.996754,0.0,1.19796e-06,0.217326,255.0,SR_TGA_0120_Z11_P1-001-3_BM_iso255_ratio2_repro_02.txt
-0.000492448,-0.266726,-0.997184,0.0,8.55121e-07,0.21209,255.0,SR_TGA_0120_Z11_P1-001-3_BM_iso255_ratio3_repro_01.txt
-0.000148425,-0.263941,-0.997446,0.0,1.33758e-07,0.129069,255.0,SR_TGA_0120_Z11_P1-001-3_BM_iso255_ratio3_repro_02.txt

File: Z13.csv
slope,intercept,r_value,p_value,std_err,C_rel,temperature,file
-0.00297838,-0.0619911,-0.999761,0.0,3.5342e-06,0.447608,230.0,SR_TGA_0121_Z13p_P1-001-3_BM_iso230_ratio_1_repro_01.txt
-0.00268039,-0.0625332,-0.999741,0.0,3.14731e-06,0.402464,230.0,SR_TGA_0121_Z13p_P1-001-3_BM_iso230_ratio_1_repro_02.txt
-0.00150607,-0.127852,-0.999456,0.0,1.93997e-06,0.211669,230.0,SR_TGA_0121_Z13p_P1-001-3_BM_iso230_ratio_2_repro_01.txt
-0.001707,-0.140733,-0.999468,0.0,2.32185e-06,0.216065,230.0,SR_TGA_0121_Z13p_P1-001-3_BM_iso230_ratio_2_repro_02.txt
-0.000303067,-0.173215,-0.998961,0.0,2.43604e-07,0.0871294,230.0,SR_TGA_0121_Z13p_P1-001-3_BM_iso230_ratio_3_repro_01.txt
-0.000865563,-0.156909,-0.999155,0.0,1.0558e-06,0.147243,230.0,SR_TGA_0121_Z13p_P1-001-3_BM_iso230_ratio_3_repro_02.txt
-0.00339394,-0.0768493,-0.999798,0.0,3.97882e-06,0.446921,235.0,SR_TGA_0121_Z13p_P1-001-3_BM_iso235_ratio_1_repro_01.txt
-0.00159703,-0.152348,-0.999159,0.0,2.64453e-06,0.198126,235.0,SR_TGA_0121_Z13p_P1-001-3_BM_iso235_ratio_1_repro_02.txt
-0.000683788,-0.184879,-0.998543,0.0,9.78131e-07,0.121371,235.0,SR_TGA_0121_Z13p_P1-001-3_BM_iso235_ratio_1_repro_03.txt
-0.00406078,-0.110415,-0.997702,6.40371e-285,1.77287e-05,0.446069,235.0,SR_TGA_0121_Z13p_P1-001-3_BM_iso235_ratio_2_repro_01.txt
-0.000411724,-0.153305,-0.999342,0.0,3.0567e-07,0.0804202,235.0,SR_TGA_0121_Z13p_P1-001-3_BM_iso235_ratio_2_repro_02.txt
-0.000410158,-0.197615,-0.998418,0.0,4.75632e-07,0.0977682,235.0,SR_TGA_0121_Z13p_P1-001-3_BM_iso235_ratio_3_repro_01.txt
-0.00705792,-0.108431,-0.99621,3.43994e-147,5.26498e-05,0.451256,240.0,SR_TGA_0121_Z13p_P1-001-3_BM_iso240_ratio_1_repro_01.txt
-0.00635089,-0.0996966,-0.998191,1.67017e-187,3.10258e-05,0.401469,240.0,SR_TGA_0121_Z13p_P1-001-3_BM_iso240_ratio_1_repro_02.txt
-0.00204491,-0.124434,-0.999259,0.0,3.58685e-06,0.196179,240.0,SR_TGA_0121_Z13p_P1-001-3_BM_iso240_ratio_2_repro_01.txt
-0.00220598,-0.152189,-0.999045,0.0,4.58811e-06,0.198497,240.0,SR_TGA_0121_Z13p_P1-001-3_BM_iso240_ratio_2_repro_02.txt
-0.001367,-0.174237,-0.99877,0.0,2.54514e-06,0.14777,240.0,SR_TGA_0121_Z13p_P1-001-3_BM_iso240_ratio_3_repro_01.txt
-0.00100647,-0.192303,-0.998237,0.0,1.92865e-06,0.13478,240.0,SR_TGA_0121_Z13p_P1-001-3_BM_iso240_ratio_3_repro_02.txt
-0.00752632,-0.140389,-0.994211,6.09161e-124,7.24636e-05,0.441539,245.0,SR_TGA_0121_Z13p_P1-001-3_BM_iso245_ratio_1_repro_01.txt
-0.00605227,-0.12812,-0.996406,2.61166e-171,4.09342e-05,0.417699,245.0,SR_TGA_0121_Z13p_P1-001-3_BM_iso245_ratio_1_repro_02.txt
-0.00568814,-0.131461,-0.997884,2.3683e-201,2.85918e-05,0.268121,245.0,SR_TGA_0121_Z13p_P1-001-3_BM_iso245_ratio_2_repro_01.txt
-0.00304097,-0.134839,-0.999153,0.0,7.00221e-06,0.20727,245.0,SR_TGA_0121_Z13p_P1-001-3_BM_iso245_ratio_2_repro_02.txt
-0.000379137,-0.250589,-0.996194,0.0,6.66787e-07,0.0871727,245.0,SR_TGA_0121_Z13p_P1-001-3_BM_iso245_ratio_2_repro_03.txt
-0.000753369,-0.200527,-0.998456,0.0,1.17234e-06,0.0948073,245.0,SR_TGA_0121_Z13p_P1-001-3_BM_iso245_ratio_3_repro_01.txt
-0.00792989,-0.124843,-0.996398,1.87942e-130,6.16126e-05,0.434077,250.0,SR_TGA_0121_Z13p_P1-001-3_BM_iso250_ratio_1_repro_01.txt
-0.00620034,-0.146792,-0.997024,4.34802e-171,3.88872e-05,0.416442,250.0,SR_TGA_0121_Z13p_P1-001-3_BM_iso250_ratio_1_repro_02.txt
-0.00363453,-0.153825,-0.998174,1e-323,1.35378e-05,0.198718,250.0,SR_TGA_0121_Z13p_P1-001-3_BM_iso250_ratio_2_repro_01.txt
-0.00181699,-0.22075,-0.997553,0.0,5.59522e-06,0.144208,250.0,SR_TGA_0121_Z13p_P1-001-3_BM_iso250_ratio_2_repro_02.txt
-0.00388297,-0.159462,-0.99845,1.26235e-310,1.37999e-05,0.216293,250.0,SR_TGA_0121_Z13p_P1-001-3_BM_iso250_ratio_2_repro_03.txt
-0.000883484,-0.181018,-0.998947,0.0,1.2239e-06,0.0912614,250.0,SR_TGA_0121_Z13p_P1-001-3_BM_iso250_ratio_3_repro_01.txt

File: Z15.csv
slope,intercept,r_value,p_value,std_err,C_rel,temperature,file
-0.000108293,-0.122446,-0.999141,0.0,5.53833e-08,0.439764,240.0,SR_TGA_0122_FCC_P1-001-3_BM_iso240_ratio_1_repro_01.txt
-5.11872e-05,-0.0646516,-0.999606,0.0,1.99787e-08,0.200667,240.0,SR_TGA_0122_FCC_P1-001-3_BM_iso240_ratio_2_repro_01.txt
-2.2133e-05,-0.0498319,-0.999933,0.0,5.60674e-09,0.106709,240.0,SR_TGA_0122_FCC_P1-001-3_BM_iso240_ratio_3_repro_01.txt
-0.000137022,-0.0821995,-0.999863,0.0,2.7999e-08,0.428145,250.0,SR_TGA_0122_FCC_P1-001-3_BM_iso250_ratio_1_repro_01.txt
-3.22434e-05,-0.0705312,-0.999746,0.0,1.11191e-08,0.198096,250.0,SR_TGA_0122_FCC_P1-001-3_BM_iso250_ratio_2_repro_01.txt
-1.97916e-05,-0.0573099,-0.999973,0.0,3.35591e-09,0.108061,250.0,SR_TGA_0122_FCC_P1-001-3_BM_iso250_ratio_3_repro_01.txt
-0.0001714,-0.0696126,-0.999272,0.0,8.50821e-08,0.386649,260.0,SR_TGA_0122_FCC_P1-001-3_BM_iso260_ratio_1_repro_01.txt
-5.5367e-05,-0.0636605,-0.999901,0.0,1.06298e-08,0.190252,260.0,SR_TGA_0122_FCC_P1-001-3_BM_iso260_ratio_2_repro_01.txt
-2.95155e-05,-0.0547409,-0.999955,0.0,4.72926e-09,0.122443,260.0,SR_TGA_0122_FCC_P1-001-3_BM_iso260_ratio_3_repro_01.txt

File: Z16.csv
slope,intercept,r_value,p_value,std_err,C_rel,temperature,file
-0.000141458,-0.115703,-0.999357,0.0,6.20442e-08,0.43747,240.0,SR_TGA_0123_FCCcr_P1-001-3_BM_iso240_ratio_1_repro_01.txt
-5.94987e-05,-0.0718985,-0.99949,0.0,2.55159e-08,0.205617,240.0,SR_TGA_0123_FCCcr_P1-001-3_BM_iso240_ratio_2_repro_01.txt
-2.4997e-05,-0.0462164,-0.999947,0.0,5.12487e-09,0.098388,240.0,SR_TGA_0123_FCCcr_P1-001-3_BM_iso240_ratio_3_repro_01.txt
-0.000265268,-0.0986448,-0.999978,0.0,2.77983e-08,0.449336,250.0,SR_TGA_0123_FCCcr_P1-001-3_BM_iso250_ratio_1_repro_01.txt
-0.000126108,-0.0733966,-0.99996,0.0,1.40088e-08,0.245379,250.0,SR_TGA_0123_FCCcr_P1-001-3_BM_iso250_ratio_1_repro_02.txt
-4.95339e-05,-0.0512409,-0.999872,0.0,1.13283e-08,0.101926,250.0,SR_TGA_0123_FCCcr_P1-001-3_BM_iso250_ratio_1_repro_03.txt
-0.000392936,-0.0697369,-0.999728,0.0,1.78155e-07,0.380696,260.0,SR_TGA_0123_FCCcr_P1-001-3_BM_iso260_ratio_1_repro_01.txt
-0.000154709,-0.086807,-0.999762,0.0,4.17498e-08,0.241641,260.0,SR_TGA_0123_FCCcr_P1-001-3_BM_iso260_ratio_2_repro_01.txt
-8.68707e-05,-0.043837,-0.999986,0.0,5.99019e-09,0.106432,260.0,SR_TGA_0123_FCCcr_P1-001-3_BM_iso260_ratio_3_repro_01.txt