Folder: External_Acidity_Paper/results/TGA/outputs_isothermal

Note: README.md
# Description
This repository hosts the companion jupyter notebook for the publication *External Acidity as Performance Descriptor in Polyolefin Cracking using Zeolite-Based Materials* (preprint posted to ChemRxiv under DOI.)
It provides an executable version of the manuscript generating all figures and analyses from raw experimental data.
The raw data is hosted on the Open Science Foundation repository under DOI:

# Getting started
## In Google Collab
The easiest way to run the notebook is in Google Collab.
Click the link below and run the notebook.
<a href="https://colab.research.google.com/github/MyonicS/paper_test/blob/main/example_notebook.ipynb" target="_parent"><img src="https://colab.research.google.com/assets/colab-badge.svg" alt="Open In Colab"/></a>
At release the notebook is running python 3.10. 
Cells at the top of the notebook clone the repository, install packages and download the experimental data to the Collab runtime. Note that these steps can take a couple minutes.  

## Running the notebook locally
The notebook is optimized to run in Google Collab. When running the notebook locally delete or comment out all code cells before importing of modules. 
1. Clone the repository:
   ```sh
   git clone LINK
   ```
2. (optional but recommended: Create a new python 3.10 environment)
3. Install the [spectrochempy library](https://www.spectrochempy.fr/latest/gettingstarted/install/install_win.html) either by following the instruction of the link or by running the command below:
   ```sh
   pip install spectrochempy
   ```
4. Install the remaining requirements by navigating to the repository and running.
   ```sh
   pip install -r requirements.txt
   ```
1. Download the experimental data from the OSF repository.
   You can do this manually by downloading the ZIP file from [here](https://osf.io/dashboard) and unzipping the folder into the repository, or by using the [datahugger](https://github.com/J535D165/datahugger) library
6. Run the notebook in your IDE of choice. We recommend VS code as it allows for interactive plots in-line, which can be enabled using 
   ```python
   %matplotlib widget
   ```
	at the start of a cell.
	
# Citing

When utilizing code or data from this study in an academic publication please cite the following preprint:
> Sebastian Rejman, *ChemRxiv*

# Bugs and Comments
Feels free to submit bug reports, comments or questions as issues.

File: Z01.csv
slope,intercept,r_value,p_value,std_err,C_rel,temperature,file
-0.000176434,-0.189972,-0.99902,0.0,1.05432e-07,0.0994191,235.0,SR_TGA_0094_Z01_P1-001-3_BM_iso235_ratio_4_repro_01.txt
-0.00283841,-0.0752808,-0.999615,0.0,4.16827e-06,0.450101,230.0,SR_TGA_0095_Z01_P1-001-3_BM_iso230_ratio_1_repro_01.txt
-0.0032427,-0.0470036,-0.999525,0.0,5.71354e-06,0.457003,230.0,SR_TGA_0095_Z01_P1-001-3_BM_iso230_ratio_1_repro_02.txt
-0.00020999,-0.192213,-0.998922,0.0,1.4338e-07,0.12074,230.0,SR_TGA_0095_Z01_P1-001-3_BM_iso230_ratio_1_repro_03.txt
-0.000577668,-0.15306,-0.999091,0.0,6.01132e-07,0.201269,230.0,SR_TGA_0095_Z01_P1-001-3_BM_iso230_ratio_2_repro_01.txt
-0.000863206,-0.11145,-0.999424,0.0,8.67494e-07,0.236516,230.0,SR_TGA_0095_Z01_P1-001-3_BM_iso230_ratio_2_repro_02.txt
-0.000242125,-0.214357,-0.99696,0.0,3.01943e-07,0.145532,230.0,SR_TGA_0095_Z01_P1-001-3_BM_iso230_ratio_3_repro_01.txt
-0.000248766,-0.224912,-0.996427,0.0,3.41429e-07,0.16153,230.0,SR_TGA_0095_Z01_P1-001-3_BM_iso230_ratio_3_repro_02.txt
-0.00402391,-0.045723,-0.999761,0.0,5.56256e-06,0.506858,240.0,SR_TGA_0095_Z01_P1-001-3_BM_iso240_ratio_1_repro_01.txt
-0.00540353,-0.0532761,-0.999552,7.70276e-281,1.19589e-05,0.450863,240.0,SR_TGA_0095_Z01_P1-001-3_BM_iso240_ratio_1_repro_02.txt
-0.000233316,-0.197826,-0.998936,0.0,1.67503e-07,0.109389,240.0,SR_TGA_0095_Z01_P1-001-3_BM_iso240_ratio_1_repro_03.txt
-0.00105231,-0.156632,-0.999024,0.0,1.53301e-06,0.199011,240.0,SR_TGA_0095_Z01_P1-001-3_BM_iso240_ratio_2_repro_01.txt
-0.00129778,-0.149178,-0.999021,0.0,2.10281e-06,0.225441,240.0,SR_TGA_0095_Z01_P1-001-3_BM_iso240_ratio_2_repro_02.txt
-0.000378468,-0.211331,-0.99762,0.0,5.21491e-07,0.134015,240.0,SR_TGA_0095_Z01_P1-001-3_BM_iso240_ratio_3_repro_01.txt
-0.000415044,-0.210695,-0.997604,0.0,6.00845e-07,0.14501,240.0,SR_TGA_0095_Z01_P1-001-3_BM_iso240_ratio_3_repro_02.txt
-0.000492254,-0.220653,-0.997989,0.0,7.1174e-07,0.171796,240.0,SR_TGA_0095_Z01_P1-001-3_BM_iso240_ratio_4_repro_01.txt
-0.000582478,-0.217747,-0.998188,0.0,8.68874e-07,0.176419,240.0,SR_TGA_0095_Z01_P1-001-3_BM_iso240_ratio_4_repro_02.txt
-0.000601747,-0.20344,-0.998465,0.0,8.36588e-07,0.171289,240.0,SR_TGA_0095_Z01_P1-001-3_BM_iso240_ratio_4_repro_03.txt
-0.00034357,-0.20017,-0.998922,0.0,3.01308e-07,0.117716,245.0,SR_TGA_0095_Z01_P1-001-3_BM_iso245_ratio_1_repro_01.txt
-0.00484,-0.061175,-0.999525,8.3884e-312,1.04195e-05,0.446218,250.0,SR_TGA_0095_Z01_P1-001-3_BM_iso250_ratio_1_repro_01.txt
-0.00498927,-0.0627573,-0.99962,2.75053e-312,9.75922e-06,0.428813,250.0,SR_TGA_0095_Z01_P1-001-3_BM_iso250_ratio_1_repro_02.txt
-0.000346829,-0.190348,-0.999117,0.0,2.76182e-07,0.103436,250.0,SR_TGA_0095_Z01_P1-001-3_BM_iso250_ratio_1_repro_03.txt
-0.00207768,-0.154867,-0.998749,0.0,4.83007e-06,0.232726,250.0,SR_TGA_0095_Z01_P1-001-3_BM_iso250_ratio_2_repro_01.txt
-0.00186024,-0.151638,-0.998775,0.0,4.04548e-06,0.216183,250.0,SR_TGA_0095_Z01_P1-001-3_BM_iso250_ratio_2_repro_02.txt
-0.000808654,-0.186461,-0.998523,0.0,1.27563e-06,0.157,250.0,SR_TGA_0095_Z01_P1-001-3_BM_iso250_ratio_3_repro_01.txt
-0.000710911,-0.206884,-0.998101,0.0,1.19856e-06,0.155019,250.0,SR_TGA_0095_Z01_P1-001-3_BM_iso250_ratio_3_repro_02.txt
-0.000974051,-0.231583,-0.998074,0.0,1.94989e-06,0.171529,250.0,SR_TGA_0095_Z01_P1-001-3_BM_iso250_ratio_4_repro_01.txt
-0.000960843,-0.247578,-0.997427,0.0,2.22445e-06,0.187288,250.0,SR_TGA_0095_Z01_P1-001-3_BM_iso250_ratio_4_repro_02.txt
-0.00124347,-0.230512,-0.997927,0.0,2.92229e-06,0.192568,250.0,SR_TGA_0095_Z01_P1-001-3_BM_iso250_ratio_4_repro_03.txt

File: Z02.csv
slope,intercept,r_value,p_value,std_err,C_rel,temperature,file
-0.00207468,-0.00158036,-0.998799,0.0,4.60694e-06,0.475681,230.0,SR_TGA_0094_Z02_P1-001-3_BM_iso230_ratio_1_repro_02.txt
-0.00205542,0.00518924,-0.998493,0.0,5.09337e-06,0.520238,230.0,SR_TGA_0094_Z02_P1-001-3_BM_iso230_ratio_1_repro_03.txt
-0.000192357,-0.165182,-0.999281,0.0,1.02194e-07,0.131296,230.0,SR_TGA_0094_Z02_P1-001-3_BM_iso230_ratio_1_repro_04.txt
-0.00172748,-0.020943,-0.9992,0.0,2.85589e-06,0.445915,230.0,SR_TGA_0094_Z02_P1-001-3_BM_iso230_ratio_2_repro_01.txt
-0.000533702,-0.101581,-0.9991,0.0,5.26955e-07,0.249113,230.0,SR_TGA_0094_Z02_P1-001-3_BM_iso230_ratio_2_repro_02.txt
-0.000753684,-0.0653473,-0.998973,0.0,9.39318e-07,0.254975,230.0,SR_TGA_0094_Z02_P1-001-3_BM_iso230_ratio_2_repro_03.txt
-0.000596399,-0.0782864,-0.999106,0.0,6.17704e-07,0.235478,230.0,SR_TGA_0094_Z02_P1-001-3_BM_iso230_ratio_3_repro_01.txt
-0.00022019,-0.0945243,-0.999324,0.0,1.20539e-07,0.156194,230.0,SR_TGA_0094_Z02_P1-001-3_BM_iso230_ratio_3_repro_02.txt
-0.000257198,-0.0909307,-0.99955,0.0,1.2393e-07,0.159492,230.0,SR_TGA_0094_Z02_P1-001-3_BM_iso230_ratio_3_repro_03.txt
-0.000225398,-0.138772,-0.999588,0.0,9.76453e-08,0.106256,235.0,SR_TGA_0094_Z02_P1-001-3_BM_iso235_ratio_1_repro_01.txt
-0.00343531,-0.0179394,-0.999564,0.0,5.9153e-06,0.463285,240.0,SR_TGA_0094_Z02_P1-001-3_BM_iso240_ratio_1_repro_01.txt
-0.00252893,-0.049639,-0.999537,0.0,3.86762e-06,0.453525,240.0,SR_TGA_0094_Z02_P1-001-3_BM_iso240_ratio_1_repro_02.txt
-0.00222067,0.0041182,-0.998864,0.0,4.95588e-06,0.463681,240.0,SR_TGA_0094_Z02_P1-001-3_BM_iso240_ratio_1_repro_03.txt
-0.000157503,-0.133629,-0.999342,0.0,7.22529e-08,0.0899798,240.0,SR_TGA_0094_Z02_P1-001-3_BM_iso240_ratio_1_repro_04.txt
-0.00107158,-0.104735,-0.999371,0.0,1.25273e-06,0.259626,240.0,SR_TGA_0094_Z02_P1-001-3_BM_iso240_ratio_2_repro_01.txt
-0.00127537,-0.0893685,-0.999354,0.0,1.64595e-06,0.266677,240.0,SR_TGA_0094_Z02_P1-001-3_BM_iso240_ratio_2_repro_02.txt
-0.00105397,-0.0990446,-0.999272,0.0,1.31515e-06,0.254965,240.0,SR_TGA_0094_Z02_P1-001-3_BM_iso240_ratio_2_repro_03.txt
-0.000519722,-0.106831,-0.999523,0.0,3.67472e-07,0.171588,240.0,SR_TGA_0094_Z02_P1-001-3_BM_iso240_ratio_3_repro_01.txt
-0.000482397,-0.120437,-0.999523,0.0,3.29257e-07,0.169967,240.0,SR_TGA_0094_Z02_P1-001-3_BM_iso240_ratio_3_repro_02.txt
-0.00045371,-0.101826,-0.999503,0.0,3.0584e-07,0.157509,240.0,SR_TGA_0094_Z02_P1-001-3_BM_iso240_ratio_3_repro_03.txt
-0.00034757,-0.145905,-0.999508,0.0,2.04826e-07,0.119156,245.0,SR_TGA_0094_Z02_P1-001-3_BM_iso245_ratio_1_repro_01.txt
-0.0050382,-0.0129695,-0.999749,0.0,8.00883e-06,0.48779,250.0,SR_TGA_0094_Z02_P1-001-3_BM_iso250_ratio_1_repro_01.txt
-0.0053029,-0.0479001,-0.999675,5.48277e-300,9.88573e-06,0.45711,250.0,SR_TGA_0094_Z02_P1-001-3_BM_iso250_ratio_1_repro_02.txt
-0.00314824,-0.00402579,-0.999594,0.0,5.01348e-06,0.471093,250.0,SR_TGA_0094_Z02_P1-001-3_BM_iso250_ratio_1_repro_03.txt
-0.000518049,-0.146734,-0.9995,0.0,3.75955e-07,0.13515,250.0,SR_TGA_0094_Z02_P1-001-3_BM_iso250_ratio_1_repro_04.txt
-0.00147788,-0.121717,-0.999391,0.0,2.0047e-06,0.229274,250.0,SR_TGA_0094_Z02_P1-001-3_BM_iso250_ratio_2_repro_01.txt
-0.00159289,-0.119245,-0.999391,0.0,2.24151e-06,0.243153,250.0,SR_TGA_0094_Z02_P1-001-3_BM_iso250_ratio_2_repro_02.txt
-0.00134332,-0.124592,-0.999331,0.0,1.82246e-06,0.239878,250.0,SR_TGA_0094_Z02_P1-001-3_BM_iso250_ratio_2_repro_03.txt
-0.000679534,-0.132496,-0.999496,0.0,5.66994e-07,0.156148,250.0,SR_TGA_0094_Z02_P1-001-3_BM_iso250_ratio_3_repro_01.txt
-0.00055279,-0.137798,-0.999474,0.0,4.2514e-07,0.148617,250.0,SR_TGA_0094_Z02_P1-001-3_BM_iso250_ratio_3_repro_02.txt
-0.000650528,-0.146415,-0.999363,0.0,5.99328e-07,0.166524,250.0,SR_TGA_0094_Z02_P1-001-3_BM_iso250_ratio_3_repro_03.txt

File: Z03.csv
slope,intercept,r_value,p_value,std_err,C_rel,temperature,file
-0.00112664,-0.138445,-0.999302,0.0,1.42642e-06,0.230184,230.0,SR_TGA_0090_Z03_P1-001-3_BM_iso230_ratio_1_repro_01.txt
-0.00106252,-0.133905,-0.999293,0.0,1.31464e-06,0.228602,230.0,SR_TGA_0090_Z03_P1-001-3_BM_iso230_ratio_1_repro_02.txt
-0.000786436,-0.138776,-0.999231,0.0,8.74585e-07,0.227738,230.0,SR_TGA_0090_Z03_P1-001-3_BM_iso230_ratio_1_repro_03.txt
-0.0044496,-0.0304846,-0.999777,0.0,6.26314e-06,0.496714,230.0,SR_TGA_0090_Z03_P1-001-3_BM_iso230_ratio_2_repro_01.txt
-0.00265332,-0.0379706,-0.999854,0.0,2.315e-06,0.470961,230.0,SR_TGA_0090_Z03_P1-001-3_BM_iso230_ratio_2_repro_02.txt
-0.00403972,-0.0337719,-0.999674,0.0,6.56486e-06,0.477166,230.0,SR_TGA_0090_Z03_P1-001-3_BM_iso230_ratio_2_repro_03.txt
-0.000185588,-0.174959,-0.999028,0.0,1.1289e-07,0.0921742,230.0,SR_TGA_0090_Z03_P1-001-3_BM_iso230_ratio_3_repro_01.txt
-0.000326062,-0.174745,-0.99885,0.0,2.86029e-07,0.121745,230.0,SR_TGA_0090_Z03_P1-001-3_BM_iso230_ratio_3_repro_02.txt
-0.000270555,-0.167228,-0.999065,0.0,1.94479e-07,0.109184,230.0,SR_TGA_0090_Z03_P1-001-3_BM_iso230_ratio_3_repro_03.txt
-0.00160886,-0.125017,-0.999135,0.0,2.71769e-06,0.226417,240.0,SR_TGA_0091_Z03_P1-001-3_BM_iso240_ratio_1_repro_01.txt
-0.00215219,-0.0972167,-0.999428,0.0,3.40667e-06,0.256128,240.0,SR_TGA_0091_Z03_P1-001-3_BM_iso240_ratio_1_repro_02.txt
-0.0017619,-0.123256,-0.999268,0.0,2.86111e-06,0.231225,240.0,SR_TGA_0091_Z03_P1-001-3_BM_iso240_ratio_1_repro_03.txt
-0.00695324,-0.0204281,-0.999615,1.4899e-224,1.61321e-05,0.493063,240.0,SR_TGA_0091_Z03_P1-001-3_BM_iso240_ratio_2_repro_01.txt
-0.00339299,-0.0484112,-0.999807,0.0,3.87762e-06,0.447755,240.0,SR_TGA_0091_Z03_P1-001-3_BM_iso240_ratio_2_repro_02.txt
-0.00446506,-0.093447,-0.998708,2.26414e-285,1.53535e-05,0.465017,240.0,SR_TGA_0091_Z03_P1-001-3_BM_iso240_ratio_2_repro_03.txt
-0.000339809,-0.161481,-0.999252,0.0,2.45075e-07,0.105896,240.0,SR_TGA_0091_Z03_P1-001-3_BM_iso240_ratio_3_repro_01.txt
-0.000314505,-0.177107,-0.999041,0.0,2.48025e-07,0.113989,240.0,SR_TGA_0091_Z03_P1-001-3_BM_iso240_ratio_3_repro_02.txt
-0.000384555,-0.166087,-0.999145,0.0,3.16658e-07,0.130243,240.0,SR_TGA_0091_Z03_P1-001-3_BM_iso240_ratio_3_repro_03.txt
-0.000822736,-0.218714,-0.998116,0.0,1.48868e-06,0.182263,240.0,SR_TGA_0092_Z03_P1-001-3_BM_iso240_ratio_4_repro_01.txt
-0.000986021,-0.195932,-0.998681,0.0,1.62536e-06,0.189931,240.0,SR_TGA_0092_Z03_P1-001-3_BM_iso240_ratio_4_repro_02.txt
-0.000790475,-0.197564,-0.998669,0.0,1.1706e-06,0.173407,240.0,SR_TGA_0092_Z03_P1-001-3_BM_iso240_ratio_4_repro_03.txt
-0.012232,0.0350223,-0.999567,2.35393e-127,3.97567e-05,0.521615,250.0,SR_TGA_0092_Z03_P1-001-3_BM_iso250_ratio_1_repro_01.txt
-0.0072813,-0.0256218,-0.9995,2.24746e-210,1.95468e-05,0.464102,250.0,SR_TGA_0092_Z03_P1-001-3_BM_iso250_ratio_1_repro_02.txt
-0.00808836,-0.0455387,-0.999017,5.77712e-167,3.2498e-05,0.473864,250.0,SR_TGA_0092_Z03_P1-001-3_BM_iso250_ratio_1_repro_03.txt
-0.00210304,-0.131036,-0.999084,0.0,4.19066e-06,0.226539,250.0,SR_TGA_0092_Z03_P1-001-3_BM_iso250_ratio_2_repro_01.txt
-0.00261594,-0.108377,-0.999293,0.0,5.08896e-06,0.238701,250.0,SR_TGA_0092_Z03_P1-001-3_BM_iso250_ratio_2_repro_02.txt
-0.00193765,-0.118919,-0.999137,0.0,3.59546e-06,0.221119,250.0,SR_TGA_0092_Z03_P1-001-3_BM_iso250_ratio_2_repro_03.txt
-0.000475531,-0.1262,-0.999233,0.0,4.10514e-07,0.102501,250.0,SR_TGA_0092_Z03_P1-001-3_BM_iso250_ratio_3_repro_01.txt
-0.000450791,-0.125913,-0.999202,0.0,3.86326e-07,0.106412,250.0,SR_TGA_0092_Z03_P1-001-3_BM_iso250_ratio_3_repro_02.txt
-0.000307488,-0.134784,-0.999043,0.0,2.3911e-07,0.102548,250.0,SR_TGA_0092_Z03_P1-001-3_BM_iso250_ratio_3_repro_03.txt
-0.00156172,-0.205847,-0.99816,0.0,3.85108e-06,0.190309,250.0,SR_TGA_0092_Z03_P1-001-3_BM_iso250_ratio_4_repro_01.txt
-0.00110159,-0.230695,-0.997798,0.0,2.50702e-06,0.17421,250.0,SR_TGA_0092_Z03_P1-001-3_BM_iso250_ratio_4_repro_02.txt
-0.00116622,-0.228848,-0.997923,0.0,2.65526e-06,0.17742,250.0,SR_TGA_0092_Z03_P1-001-3_BM_iso250_ratio_4_repro_03.txt

File: Z04.csv
slope,intercept,r_value,p_value,std_err,C_rel,temperature,file
-0.00113651,-0.144554,-0.998641,0.0,2.00744e-06,0.392004,230.0,SR_TGA_0093_Z04_P1-001-3_BM_iso230_ratio_1_repro_01.txt
-0.00262404,-0.170005,-0.996553,0.0,1.13877e-05,0.441995,230.0,SR_TGA_0093_Z04_P1-001-3_BM_iso230_ratio_1_repro_02.txt
-0.00123836,-0.181056,-0.997579,0.0,3.0791e-06,0.400723,230.0,SR_TGA_0093_Z04_P1-001-3_BM_iso230_ratio_1_repro_03.txt
-0.000306544,-0.283238,-0.99465,0.0,5.81848e-07,0.214701,230.0,SR_TGA_0093_Z04_P1-001-3_BM_iso230_ratio_2_repro_01.txt
-0.00036206,-0.271265,-0.99534,0.0,6.93952e-07,0.216016,230.0,SR_TGA_0093_Z04_P1-001-3_BM_iso230_ratio_2_repro_02.txt
-0.000277728,-0.280708,-0.994871,0.0,4.90872e-07,0.207875,230.0,SR_TGA_0093_Z04_P1-001-3_BM_iso230_ratio_2_repro_03.txt
-7.73418e-05,-0.203961,-0.99472,0.0,9.63252e-08,0.110396,230.0,SR_TGA_0093_Z04_P1-001-3_BM_iso230_ratio_3_repro_01.txt
-7.11238e-05,-0.222518,-0.992248,0.0,1.07089e-07,0.122593,230.0,SR_TGA_0093_Z04_P1-001-3_BM_iso230_ratio_3_repro_02.txt
-9.21887e-05,-0.256906,-0.993464,0.0,1.26224e-07,0.141418,230.0,SR_TGA_0093_Z04_P1-001-3_BM_iso230_ratio_4_repro_01.txt
-0.000124006,-0.269677,-0.996239,0.0,1.28154e-07,0.147337,230.0,SR_TGA_0093_Z04_P1-001-3_BM_iso230_ratio_4_repro_02.txt
-4.73201e-05,-0.20612,-0.988757,0.0,8.6366e-08,0.1071,230.0,SR_TGA_0093_Z04_P1-001-3_BM_iso230_ratio_4_repro_03.txt
-6.638e-05,-0.198434,-0.995051,0.0,7.9889e-08,0.0942139,235.0,SR_TGA_0093_Z04_P1-001-3_BM_iso235_ratio_1_repro_01.txt
-0.000127149,-0.271621,-0.997146,0.0,1.14255e-07,0.143131,235.0,SR_TGA_0093_Z04_P1-001-3_BM_iso235_ratio_2_repro_01.txt
-0.000253492,-0.301884,-0.994456,0.0,4.48616e-07,0.211278,235.0,SR_TGA_0093_Z04_P1-001-3_BM_iso235_ratio_3_repro_01.txt
-0.00229432,-0.292438,-0.992481,0.0,1.4402e-05,0.394482,235.0,SR_TGA_0093_Z04_P1-001-3_BM_iso235_ratio_4_repro_01.txt
-0.00261918,-0.215457,-0.994184,0.0,1.4954e-05,0.43668,240.0,SR_TGA_0093_Z04_P1-001-3_BM_iso240_ratio_1_repro_01.txt
-0.0016935,-0.185962,-0.998089,0.0,4.37645e-06,0.420485,240.0,SR_TGA_0093_Z04_P1-001-3_BM_iso240_ratio_1_repro_02.txt
-0.0035102,-0.169706,-0.996227,7.72803e-292,1.85082e-05,0.438756,240.0,SR_TGA_0093_Z04_P1-001-3_BM_iso240_ratio_1_repro_03.txt
-0.000367319,-0.287423,-0.994908,0.0,7.47329e-07,0.203269,240.0,SR_TGA_0093_Z04_P1-001-3_BM_iso240_ratio_2_repro_01.txt
-0.00041256,-0.285264,-0.994862,0.0,8.93229e-07,0.216253,240.0,SR_TGA_0093_Z04_P1-001-3_BM_iso240_ratio_2_repro_02.txt
-0.000504104,-0.278995,-0.9949,0.0,1.19994e-06,0.227614,240.0,SR_TGA_0093_Z04_P1-001-3_BM_iso240_ratio_2_repro_03.txt
-0.00014736,-0.257338,-0.997228,0.0,1.38266e-07,0.139579,240.0,SR_TGA_0093_Z04_P1-001-3_BM_iso240_ratio_3_repro_01.txt
-0.000173772,-0.254401,-0.997413,0.0,1.70967e-07,0.146796,240.0,SR_TGA_0093_Z04_P1-001-3_BM_iso240_ratio_3_repro_02.txt
-0.000137123,-0.265256,-0.997087,0.0,1.27601e-07,0.139028,240.0,SR_TGA_0093_Z04_P1-001-3_BM_iso240_ratio_3_repro_03.txt
-0.00018884,-0.263497,-0.997612,0.0,1.86577e-07,0.146804,240.0,SR_TGA_0093_Z04_P1-001-3_BM_iso240_ratio_4_repro_03.txt
-0.000142087,-0.24933,-0.998276,0.0,1.02873e-07,0.112075,245.0,SR_TGA_0093_Z04_P1-001-3_BM_iso245_ratio_1_repro_01.txt
-0.000177455,-0.273118,-0.997403,0.0,1.77847e-07,0.140472,245.0,SR_TGA_0093_Z04_P1-001-3_BM_iso245_ratio_2_repro_01.txt
-0.00353623,-0.295102,-0.988494,4.34618e-207,3.4223e-05,0.399374,245.0,SR_TGA_0093_Z04_P1-001-3_BM_iso245_ratio_3_repro_01.txt
-0.000625838,-0.312958,-0.995171,0.0,1.63802e-06,0.216598,245.0,SR_TGA_0093_Z04_P1-001-3_BM_iso245_ratio_4_repro_01.txt
-0.00549726,-0.177268,-0.994958,1.00849e-174,4.21295e-05,0.419638,250.0,SR_TGA_0093_Z04_P1-001-3_BM_iso250_ratio_1_repro_01.txt
-0.00535143,-0.200416,-0.991291,1.15341e-158,5.3287e-05,0.428006,250.0,SR_TGA_0093_Z04_P1-001-3_BM_iso250_ratio_1_repro_02.txt
-0.00358919,-0.220087,-0.99392,4.02849e-252,2.46106e-05,0.430363,250.0,SR_TGA_0093_Z04_P1-001-3_BM_iso250_ratio_1_repro_03.txt
-0.000782794,-0.283734,-0.994687,0.0,2.38085e-06,0.224492,250.0,SR_TGA_0093_Z04_P1-001-3_BM_iso250_ratio_2_repro_01.txt
-0.00106554,-0.274076,-0.994617,0.0,3.7987e-06,0.245705,250.0,SR_TGA_0093_Z04_P1-001-3_BM_iso250_ratio_2_repro_02.txt
-0.000618609,-0.287817,-0.99471,0.0,1.66911e-06,0.208886,250.0,SR_TGA_0093_Z04_P1-001-3_BM_iso250_ratio_2_repro_03.txt
-0.000207113,-0.237602,-0.998144,0.0,1.8747e-07,0.124653,250.0,SR_TGA_0093_Z04_P1-001-3_BM_iso250_ratio_3_repro_01.txt
-0.00017047,-0.247423,-0.998006,0.0,1.45669e-07,0.123919,250.0,SR_TGA_0093_Z04_P1-001-3_BM_iso250_ratio_3_repro_02.txt
-0.000329717,-0.255366,-0.997317,0.0,4.56536e-07,0.158932,250.0,SR_TGA_0093_Z04_P1-001-3_BM_iso250_ratio_3_repro_03.txt
-0.000456718,-0.319387,-0.995209,0.0,1.01995e-06,0.17751,250.0,SR_TGA_0093_Z04_P1-001-3_BM_iso250_ratio_4_repro_01.txt
-0.000377784,-0.287079,-0.996933,0.0,6.05492e-07,0.156884,250.0,SR_TGA_0093_Z04_P1-001-3_BM_iso250_ratio_4_repro_02.txt
-0.000450743,-0.298137,-0.99636,0.0,8.64067e-07,0.169461,250.0,SR_TGA_0093_Z04_P1-001-3_BM_iso250_ratio_4_repro_03.txt

File: Z09.csv
slope,intercept,r_value,p_value,std_err,C_rel,temperature,file
-0.00148394,-0.0593033,-0.999561,0.0,1.68117e-06,0.428891,235.0,SR_TGA_0119_Z09_P1-001-3_BM_iso235_ratio_1_repro_01.txt
-0.00198659,-0.0771087,-0.999784,0.0,1.83378e-06,0.426758,235.0,SR_TGA_0119_Z09_P1-001-3_BM_iso235_ratio_1_repro_02.txt
-0.000862261,-0.094247,-0.999586,0.0,7.2815e-07,0.218146,235.0,SR_TGA_0119_Z09_P1-001-3_BM_iso235_ratio_2_repro_01.txt
-0.000715125,-0.122011,-0.999616,0.0,5.31807e-07,0.190343,235.0,SR_TGA_0119_Z09_P1-001-3_BM_iso235_ratio_2_repro_02.txt
-0.00044709,-0.139198,-0.999564,0.0,2.80372e-07,0.153661,235.0,SR_TGA_0119_Z09_P1-001-3_BM_iso235_ratio_3_repro_01.txt
-0.000220273,-0.137676,-0.999555,0.0,9.80653e-08,0.0835513,235.0,SR_TGA_0119_Z09_P1-001-3_BM_iso235_ratio_3_repro_02.txt
-0.00174223,-0.101692,-0.999401,0.0,2.5293e-06,0.408683,240.0,SR_TGA_0119_Z09_P1-001-3_BM_iso240_ratio_1_repro_01.txt
-0.00163317,-0.0741699,-0.999669,0.0,1.69476e-06,0.391495,240.0,SR_TGA_0119_Z09_P1-001-3_BM_iso240_ratio_1_repro_02.txt
-0.000769292,-0.132881,-0.999519,0.0,6.66526e-07,0.183477,240.0,SR_TGA_0119_Z09_P1-001-3_BM_iso240_ratio_2_repro_01.txt
-0.000992536,-0.0822053,-0.999489,0.0,9.99473e-07,0.203132,240.0,SR_TGA_0119_Z09_P1-001-3_BM_iso240_ratio_2_repro_02.txt
-0.000379394,-0.128799,-0.999556,0.0,2.21411e-07,0.127571,240.0,SR_TGA_0119_Z09_P1-001-3_BM_iso240_ratio_3_repro_01.txt
-0.000222943,-0.119379,-0.999534,0.0,1.0202e-07,0.0621213,240.0,SR_TGA_0119_Z09_P1-001-3_BM_iso240_ratio_3_repro_02.txt
-0.00244198,-0.131642,-0.999179,0.0,4.96853e-06,0.427788,245.0,SR_TGA_0119_Z09_P1-001-3_BM_iso245_ratio_1_repro_01.txt
-0.00199197,-0.0539168,-0.999443,0.0,2.95447e-06,0.453653,245.0,SR_TGA_0119_Z09_P1-001-3_BM_iso245_ratio_1_repro_02.txt
-0.000791447,-0.139188,-0.999497,0.0,7.12008e-07,0.172687,245.0,SR_TGA_0119_Z09_P1-001-3_BM_iso245_ratio_2_repro_01.txt
-0.0012732,-0.108856,-0.999488,0.0,1.45973e-06,0.209292,245.0,SR_TGA_0119_Z09_P1-001-3_BM_iso245_ratio_2_repro_02.txt
-0.000604054,-0.115284,-0.999521,0.0,4.61616e-07,0.141581,245.0,SR_TGA_0119_Z09_P1-001-3_BM_iso245_ratio_3_repro_01.txt
-0.00130965,-0.112976,-0.999423,0.0,1.61939e-06,0.174129,245.0,SR_TGA_0119_Z09_P1-001-3_BM_iso245_ratio_3_repro_02.txt
-0.00295398,-0.0750408,-0.999549,0.0,4.82893e-06,0.410783,250.0,SR_TGA_0119_Z09_P1-001-3_BM_iso250_ratio_1_repro_01.txt
-0.00219044,-0.053388,-0.999206,0.0,4.0712e-06,0.405795,250.0,SR_TGA_0119_Z09_P1-001-3_BM_iso250_ratio_1_repro_02.txt
-0.0013429,-0.110718,-0.999281,0.0,1.87975e-06,0.193892,250.0,SR_TGA_0119_Z09_P1-001-3_BM_iso250_ratio_2_repro_01.txt
-0.00144031,-0.114752,-0.999364,0.0,1.96731e-06,0.190811,250.0,SR_TGA_0119_Z09_P1-001-3_BM_iso250_ratio_2_repro_02.txt
-0.000553506,-0.113356,-0.99933,0.0,4.79403e-07,0.123776,250.0,SR_TGA_0119_Z09_P1-001-3_BM_iso250_ratio_3_repro_01.txt
-0.00058774,-0.141877,-0.999463,0.0,4.71173e-07,0.112819,250.0,SR_TGA_0119_Z09_P1-001-3_BM_iso250_ratio_3_repro_02.txt
-0.00628738,-0.11348,-0.998227,1.29349e-190,3.02119e-05,0.459736,255.0,SR_TGA_0119_Z09_P1-001-3_BM_iso255_ratio_1_repro_01.txt
-0.00260294,-0.0845105,-0.999394,0.0,4.63727e-06,0.397795,255.0,SR_TGA_0119_Z09_P1-001-3_BM_iso255_ratio_1_repro_02.txt
-0.00188082,-0.100643,-0.998729,0.0,4.15095e-06,0.238407,255.0,SR_TGA_0119_Z09_P1-001-3_BM_iso255_ratio_2_repro_01.txt
-0.00188051,-0.118982,-0.999172,0.0,3.35716e-06,0.205914,255.0,SR_TGA_0119_Z09_P1-001-3_BM_iso255_ratio_2_repro_02.txt
-0.000807429,-0.101926,-0.999178,0.0,9.35456e-07,0.133446,255.0,SR_TGA_0119_Z09_P1-001-3_BM_iso255_ratio_3_repro_01.txt
-0.000712766,-0.104307,-0.99908,0.0,8.21057e-07,0.107649,255.0,SR_TGA_0119_Z09_P1-001-3_BM_iso255_ratio_3_repro_02.txt